Mercapto (HS)	H1S1(g)
T(K)	Cp	S	-[G-H(Tr)]/T	H-H(Tr)	delta-f H	delta-f G	log Kf
 100.00  30.185 160.686 -224.496        -6.381   139.402         129.622       -67.706
 200.00  32.697 182.575 -198.614        -3.208   139.586         119.740       -31.272
 250.00  32.734 189.885 -196.164        -1.570   139.466         114.937       -24.014
 298.15  32.447 195.628 -195.628         0.000   139.327         110.039       -19.278
 300.00  32.434 195.829 -195.629         0.060   139.318         109.857       -19.127
 350.00  32.052 200.800 -196.022         1.672   137.908         105.069       -15.680
 400.00  31.707 205.057 -196.892         3.266   136.475         100.212       -13.086
 450.00  31.446 208.775 -198.010         4.844   135.358          95.769       -11.116
 500.00  31.283 212.079 -199.255         6.412   134.231          91.392        -9.547
 600.00  31.228 217.773 -201.881         9.535   132.305          83.011        -7.227
 700.00  31.452 222.601 -204.505        12.667   130.620          74.930        -5.591
 800.00  31.844 226.825 -207.036        15.831   129.097          67.081        -4.380
 900.00  32.318 230.602 -209.448        19.039    74.561          60.496        -3.511
1000.00  32.814 234.033 -211.738        22.295    74.459          58.938        -3.079
1100.00  33.301 237.184 -213.910        25.601    74.374          57.390        -2.725
1200.00  33.761 240.101 -215.972        28.955    74.302          55.850        -2.431
1300.00  34.185 242.820 -217.934        32.352    74.236          54.315        -2.182
1400.00  34.571 245.368 -219.804        35.790    74.174          52.784        -1.969
1500.00  34.922 247.765 -221.589        39.265    74.112          51.257        -1.785
1600.00  35.239 250.030 -223.296        42.774    74.048          49.737        -1.624
1700.00  35.526 252.175 -224.932        46.312    73.976          48.220        -1.482
1800.00  35.786 254.213 -226.503        49.878    73.897          46.707        -1.355
1900.00  36.021 256.154 -228.013        53.468    73.812          45.198        -1.243
2000.00  36.236 258.007 -229.467        57.081    73.719          43.694        -1.141
2100.00  36.432 259.780 -230.868        60.715    73.618          42.196        -1.050
2200.00  36.611 261.479 -232.221        64.367    73.508          40.702        -0.966
2300.00  36.777 263.110 -233.529        68.037    73.391          39.214        -0.891
2400.00  36.930 264.679 -234.794        71.722    73.264          37.731        -0.821
2500.00  37.072 266.189 -236.020        75.422    73.130          36.254        -0.757
2600.00  37.205 267.646 -237.209        79.136    72.989          34.780        -0.699
2700.00  37.329 269.052 -238.362        82.863    72.842          33.314        -0.644
2800.00  37.445 270.412 -239.483        86.602    72.689          31.852        -0.594
2900.00  37.555 271.728 -240.572        90.352    72.529          30.396        -0.547
3000.00  37.659 273.003 -241.632        94.113    72.362          28.946        -0.504
3100.00  37.758 274.239 -242.664        97.883    72.189          27.502        -0.463
3200.00  37.852 275.439 -243.669       101.664    72.011          26.066        -0.425
3300.00  37.942 276.606 -244.650       105.454    71.827          24.629        -0.390
3400.00  38.028 277.740 -245.607       109.252    71.637          23.200        -0.356
3500.00  38.112 278.843 -246.540       113.059    71.441          21.783        -0.325
3600.00  38.192 279.918 -247.453       116.874    71.239          20.365        -0.295
3700.00  38.270 280.965 -248.344       120.698    71.033          18.957        -0.268
3800.00  38.346 281.987 -249.216       124.528    70.817          17.552        -0.241
3900.00  38.420 282.984 -250.069       128.367    70.598          16.153        -0.216
4000.00  38.492 283.958 -250.905       132.212    70.370          14.757        -0.193
4100.00  38.564 284.909 -251.722       136.065    70.134          13.316        -0.170
4200.00  38.634 285.839 -252.524       139.925    69.896          11.987        -0.149
4300.00  38.703 286.749 -253.309       143.792    69.645          10.559        -0.128
4400.00  38.772 287.640 -254.079       147.666    69.393           9.245        -0.110
4500.00  38.841 288.512 -254.835       151.546    69.126           7.828        -0.091
4600.00  38.909 289.366 -255.576       155.434    68.859           6.523        -0.074
4700.00  38.977 290.204 -256.304       159.328    68.577           5.123        -0.057
4800.00  39.045 291.025 -257.019       163.229    68.295           3.821        -0.042
4900.00  39.114 291.831 -257.721       167.137    67.998           2.441        -0.026
5000.00  39.183 292.622 -258.411       171.052    67.701           1.152        -0.012
5100.00  39.253 293.398 -259.090       174.974    67.390          -0.222         0.002
5200.00  39.323 294.161 -259.757       178.902    67.078          -1.505         0.015
5300.00  39.394 294.911 -260.413       182.838    66.753          -2.856         0.028
5400.00  39.466 295.648 -261.059       186.781    66.428          -4.129         0.040
5500.00  39.539 296.373 -261.694       190.732    66.091          -5.466         0.052
5600.00  39.614 297.086 -262.320       194.689    65.754          -6.727         0.063
5700.00  39.689 297.788 -262.936       198.654    65.405          -8.052         0.074
5800.00  39.766 298.478 -263.543       202.627    65.059          -9.307         0.084
5900.00  39.844 299.159 -264.141       206.608    64.701         -10.618         0.094
6000.00  39.924 299.829 -264.730       210.596    64.346         -11.855         0.103
